File: weave/spectra/Al2O3_StdC_15kV7p5nA130kHz_300s.msa
#FORMAT      : EMSA/MAS Spectral Data File
#VERSION     : 1.0
#TITLE       : Bruker Nano spectrum Acquisition
#DATE        : 31-DEC-1969
#TIME        : 07:00
#OWNER       : Bruker Nano
#NPOINTS     : 4096
#NCOLUMNS    : 1
#XUNITS      : eV
#YUNITS      : counts
#DATATYPE    : Y
#XPERCHAN    : 5.00332
#OFFSET      : -482.834
#BEAMKV      : 15
#SIGNALTYPE  : EDS
#ELEVANGLE   : 40
#AZIMANGLE   : 45
#LIVETIME    : 300
#REALTIME    : 353.979
#PROBECUR    : 7.5
#TAUWIND     : 0
#TDEADLYR    : 0
#TACTLYR     : 0.045
#TALWIND     : 0.004
#CHOFFSET    : 0.0
#XLABEL      : Energy (eV)
#YLABEL      : Counts
#EDSDET      : SDUTW
##SPECIMEN   : Al2O3_StdC_15kV7p5nA130kHz_300s
##D2STDCMP   : Al2O3,(O:47.0749),(Al:52.9251),3.97
##DET_HASH   : c6370f9e-cc72-7559-f57e-203d75c8942b
##CALIB_HASH : b7972ae8-4123-2fc4-0a4f-7316ec9026e4
##SAMPLE     : <BulkSample id="1">\n<mOrientation id="2">\n<double>0.0</double>\n<double>0.0</double>\n<double>-1.0</double>\n</mOrientation>\n</BulkSample>
#SPECTRUM    :
0,
0,
0,
0,
0,
0,
0,
0,
0,
0,
0,
0,
0,
0,
0,
0,
0,
0,
6,
7,
30,
32,
22,
34,
31,
33,
45,
421,
5699,
44373,
185786,
421200,
514555,
339844,
122303,
24899,
2978,
323,
53,
0,
29,
1194,
1067,
1099,
1133,
1266,
1632,
2694,
5479,
9735,
13371,
12854,
8398,
4217,
2251,
1938,
2133,
2544,
2850,
3308,
4173,
6016,
11500,
28684,
74956,
166749,
273233,
316289,
256648,
143910,
57073,
17316,
5267,
2921,
2728,
2949,
3266,
3444,
3552,
3605,
3710,
3820,
3976,
4148,
4237,
4541,
4707,
5092,
5226,
5445,
5554,
5690,
5545,
5893,
5909,
6234,
6372,
6532,
6684,
6903,
6916,
7027,
7248,
7342,
7471,
7545,
7651,
7892,
8081,
7967,
8561,
8494,
8596,
9044,
9360,
9806,
10049,
10449,
10939,
11286,
12086,
12424,
12972,
13497,
15455,
23984,
52946,
129055,
283022,
516249,
759933,
898089,
854614,
656986,
413586,
218336,
103666,
48796,
24461,
13724,
8836,
6462,
5256,
4625,
4605,
4580,
4702,
4909,
5016,
5000,
4776,
4564,
4318,
4132,
4111,
4141,
4121,
4053,
4005,
4080,
4190,
4302,
4394,
4474,
4311,
4247,
4123,
4046,
4208,
4100,
4098,
4082,
4023,
4090,
4071,
4043,
4000,
3962,
4075,
4002,
4035,
4016,
4025,
4054,
4069,
4197,
4219,
4019,
4198,
3970,
4010,
4062,
3863,
3840,
3894,
3803,
3866,
3819,
3705,
3789,
3720,
3689,
3704,
3683,
3672,
3620,
3663,
3636,
3652,
3608,
3593,
3613,
3573,
3555,
3572,
3573,
3517,
3460,
3464,
3566,
3470,
3367,
3294,
3323,
3183,
3165,
3049,
3048,
3038,
3079,
3023,
3054,
3030,
3088,
3049,
3018,
3013,
3004,
3067,
3092,
3128,
3093,
3095,
3125,
3069,
3016,
3063,
3033,
3068,
2935,
3012,
2983,
2959,
2927,
2972,
2967,
2958,
2912,
2871,
2835,
2854,
2844,
2821,
2760,
2785,
2733,
2722,
2705,
2731,
2697,
2711,
2699,
2635,
2665,
2798,
2888,
2917,
2988,
3025,
3006,
2927,
2815,
2839,
2620,
2552,
2481,
2469,
2404,
2425,
2485,
2387,
2378,
2393,
2361,
2362,
2352,
2383,
2356,
2318,
2400,
2405,
2268,
2287,
2318,
2219,
2197,
2325,
2241,
2145,
2180,
2222,
2096,
2076,
2116,
2191,
2069,
2127,
2128,
2054,
2153,
2081,
2013,
1985,
2035,
2098,
2026,
2005,
2022,
1985,
2002,
2011,
1925,
1954,
1988,
1905,
1928,
1917,
1846,
1886,
1886,
1855,
1885,
1834,
1802,
1854,
1836,
1792,
1820,
1811,
1840,
1762,
1795,
1748,
1762,
1738,
1753,
1734,
1712,
1718,
1754,
1756,
1726,
1620,
1675,
1620,
1640,
1609,
1592,
1682,
1573,
1590,
1563,
1570,
1595,
1531,
1556,
1571,
1533,
1545,
1560,
1482,
1503,
1530,
1463,
1480,
1487,
1433,
1399,
1517,
1414,
1476,
1480,
1452,
1442,
1456,
1403,
1397,
1365,
1390,
1397,
1379,
1398,
1342,
1444,
1273,
1378,
1389,
1360,
1258,
1406,
1287,
1317,
1320,
1273,
1249,
1321,
1256,
1321,
1253,
1224,
1274,
1272,
1245,
1242,
1240,
1181,
1180,
1192,
1255,
1198,
1207,
1220,
1162,
1183,
1119,
1149,
1213,
1146,
1116,
1213,
1118,
1107,
1122,
1101,
1068,
1081,
1050,
1113,
1088,
1046,
1161,
1058,
1112,
1051,
1109,
1067,
1039,
1064,
1089,
1058,
1025,
1047,
1079,
1072,
982,
1048,
1037,
988,
992,
1003,
1055,
963,
979,
1012,
926,
984,
950,
899,
944,
969,
993,
902,
970,
934,
913,
882,
902,
896,
891,
854,
903,
928,
865,
889,
907,
897,
850,
901,
872,
809,
865,
841,
851,
864,
874,
830,
821,
766,
846,
853,
832,
806,
825,
805,
816,
810,
799,
804,
805,
798,
784,
773,
813,
820,
732,
795,
794,
760,
797,
813,
836,
797,
765,
771,
778,
733,
775,
726,
676,
703,
746,
746,
698,
754,
697,
715,
685,
686,
632,
664,
683,
752,
665,
687,
687,
660,
715,
627,
669,
661,
691,
653,
610,
653,
679,
652,
619,
647,
657,
634,
629,
626,
624,
625,
585,
603,
595,
610,
609,
597,
606,
617,
543,
626,
608,
562,
546,
624,
594,
588,
550,
563,
610,
560,
596,
569,
522,
603,
522,
470,
538,
545,
555,
555,
531,
520,
514,
547,
522,
522,
516,
527,
544,
506,
504,
463,
514,
503,
472,
510,
483,
493,
488,
509,
498,
477,
506,
490,
453,
406,
458,
461,
485,
463,
470,
509,
470,
416,
460,
438,
476,
480,
453,
423,
417,
420,
429,
422,
408,
449,
432,
444,
409,
430,
432,
390,
437,
410,
418,
418,
394,
364,
353,
373,
414,
360,
379,
400,
386,
377,
403,
401,
393,
394,
377,
359,
361,
350,
385,
352,
351,
392,
355,
365,
347,
348,
344,
364,
321,
358,
381,
336,
339,
295,
332,
381,
349,
326,
308,
326,
296,
317,
270,
299,
323,
331,
324,
306,
318,
282,
286,
309,
295,
285,
348,
284,
314,
260,
282,
290,
265,
280,
295,
291,
298,
305,
289,
291,
276,
273,
268,
268,
279,
269,
240,
259,
300,
241,
255,
256,
255,
267,
266,
263,
271,
243,
253,
218,
252,
247,
260,
236,
254,
267,
225,
228,
256,
244,
232,
219,
254,
226,
205,
227,
229,
200,
214,
222,
207,
223,
195,
212,
222,
205,
190,
190,
194,
201,
169,
183,
198,
190,
187,
194,
180,
169,
160,
224,
175,
183,
180,
179,
170,
182,
206,
171,
157,
162,
178,
168,
190,
173,
157,
169,
180,
186,
163,
192,
166,
195,
160,
157,
178,
168,
168,
154,
158,
148,
150,
161,
155,
155,
152,
149,
149,
113,
138,
146,
129,
153,
146,
138,
132,
129,
151,
130,
130,
159,
138,
126,
135,
116,
133,
134,
133,
111,
118,
139,
138,
128,
124,
126,
122,
120,
107,
113,
97,
120,
104,
106,
87,
82,
86,
113,
101,
103,
103,
120,
115,
112,
87,
83,
83,
91,
107,
80,
92,
104,
112,
88,
94,
86,
100,
81,
102,
93,
81,
93,
92,
96,
70,
75,
83,
82,
95,
87,
74,
78,
75,
71,
65,
71,
87,
64,
53,
83,
85,
68,
68,
69,
55,
93,
73,
74,
59,
62,
62,
49,
67,
57,
54,
60,
56,
57,
53,
50,
60,
63,
52,
47,
60,
57,
52,
47,
53,
56,
42,
51,
53,
30,
54,
45,
46,
38,
45,
47,
50,
37,
34,
30,
33,
41,
41,
24,
43,
36,
33,
31,
27,
34,
36,
21,
32,
34,
28,
35,
39,
25,
25,
36,
27,
35,
37,
18,
28,
15,
29,
38,
32,
24,
21,
26,
24,
18,
18,
10,
26,
22,
15,
15,
18,
15,
21,
19,
11,
22,
13,
17,
14,
13,
9,
11,
10,
13,
10,
7,
11,
5,
12,
5,
7,
6,
16,
7,
6,
11,
10,
9,
12,
11,
8,
8,
4,
9,
8,
4,
7,
7,
9,
3,
6,
6,
3,
4,
0,
3,
1,
2,
0,
0,
1,
2,
0,
2,
1,
0,
1,
0,
0,
1,
0,
0,
0,
1,
1,
1,
1,
1,
0,
0,
0,
0,
0,
0,
1,
0,
0,
1,
0,
1,
1,
0,
1,
2,
0,
0,
0,
1,
0,
0,
2,
2,
2,
0,
1,
0,
0,
0,
1,
1,
1,
0,
0,
0,
0,
0,
2,
0,
1,
1,
0,
2,
0,
0,
0,
1,
1,
0,
1,
1,
1,
0,
0,
0,
0,
0,
0,
0,
1,
0,
1,
0,
0,
0,
0,
0,
0,
0,
0,
0,
0,
0,
1,
0,
0,
0,
0,
0,
0,
0,
0,
0,
0,
0,
0,
0,
0,
0,
0,
0,
0,
0,
0,
0,
1,
0,
1,
0,
0,
0,
0,
0,
0,
0,
1,
0,
0,
0,
0,
0,
0,
0,
1,
0,
0,
0,
0,
1,
0,
1,
0,
0,
0,
0,
0,
0,
0,
0,
0,
0,
0,
0,
0,
0,
1,
0,
0,
1,
0,
0,
0,
0,
0,
0,
0,
0,
0,
0,
0,
0,
0,
0,
0,
0,
0,
0,
0,
0,
0,
0,
0,
0,
0,
0,
0,
0,
0,
0,
0,
0,
0,
0,
0,
0,
1,
0,
0,
0,
0,
0,
0,
0,
0,
0,
0,
0,
0,
0,
0,
0,
0,
0,
0,
1,
0,
0,
0,
0,
0,
0,
0,
0,
0,
0,
0,
0,
1,
0,
0,
0,
0,
0,
0,
0,
0,
0,
0,
0,
0,
0,
0,
0,
0,
0,
0,
0,
0,
0,
0,
0,
0,
0,
0,
0,
0,
1,
0,
0,
0,
0,
0,
0,
1,
0,
0,
0,
0,
0,
0,
0,
0,
0,
0,
0,
0,
0,
0,
0,
0,
1,
0,
0,
0,
0,
0,
0,
0,
0,
0,
0,
0,
0,
0,
0,
0,
0,
0,
0,
0,
0,
0,
0,
0,
0,
0,
0,
0,
0,
0,
0,
0,
0,
0,
0,
0,
0,
0,
0,
0,
0,
0,
0,
0,
0,
0,
0,
#ENDOFDATA   :