File: weave/spectra/C_StdC_15kV7p5nA130kHz_48kHz9DT_100s.msa
#FORMAT      : EMSA/MAS Spectral Data File
#VERSION     : 1.0
#TITLE       : Bruker Nano spectrum Acquisition
#DATE        : 03-OCT-2019
#TIME        : 08:38
#OWNER       : Bruker Nano
#NPOINTS     : 4096
#NCOLUMNS    : 1
#XUNITS      : eV
#YUNITS      : counts
#DATATYPE    : Y
#XPERCHAN    : 5.00332
#OFFSET      : -482.834
#BEAMKV      : 15
#SIGNALTYPE  : EDS
#ELEVANGLE   : 40
#AZIMANGLE   : 45
#LIVETIME    : 100
#REALTIME    : 109.577
#PROBECUR    : 7.5
#TAUWIND     : 0
#TDEADLYR    : 0
#TACTLYR     : 0.045
#TALWIND     : 0.004
#CHOFFSET    : 0.0
#XLABEL      : Energy (eV)
#YLABEL      : Counts
#EDSDET      : SDUTW
##D2STDCMP   : C,(C:100.0),2.0
##DET_HASH   : c6370f9e-cc72-7559-f57e-203d75c8942b
##CALIB_HASH : b7972ae8-4123-2fc4-0a4f-7316ec9026e4
##SAMPLE     : <BulkSample id="1">\n<mOrientation id="2">\n<double>0.0</double>\n<double>0.0</double>\n<double>-1.0</double>\n</mOrientation>\n</BulkSample>
#SPECTRUM    :
0,
0,
0,
0,
0,
0,
0,
0,
0,
0,
0,
0,
0,
0,
0,
0,
0,
0,
0,
1,
1,
2,
1,
1,
1,
3,
3,
72,
1136,
8704,
37165,
84237,
102748,
67740,
24488,
5241,
845,
200,
100,
0,
0,
107,
88,
205,
699,
2481,
9225,
33857,
101631,
218232,
316480,
300967,
186247,
75284,
20101,
3941,
1103,
695,
573,
554,
489,
621,
831,
1158,
1626,
2112,
2178,
1937,
1765,
1282,
800,
467,
319,
382,
462,
547,
662,
710,
727,
740,
864,
794,
829,
849,
909,
903,
977,
947,
1032,
1060,
1110,
1113,
1210,
1229,
1247,
1315,
1342,
1374,
1457,
1523,
1545,
1536,
1517,
1487,
1530,
1494,
1526,
1467,
1546,
1588,
1547,
1559,
1542,
1540,
1579,
1550,
1575,
1561,
1527,
1649,
1579,
1586,
1586,
1515,
1522,
1483,
1610,
1549,
1554,
1540,
1517,
1510,
1505,
1450,
1481,
1411,
1432,
1407,
1386,
1388,
1309,
1384,
1373,
1458,
1442,
1433,
1525,
1632,
1665,
1666,
1517,
1484,
1415,
1319,
1250,
1295,
1209,
1215,
1184,
1165,
1170,
1206,
1181,
1142,
1171,
1169,
1132,
1078,
1067,
1030,
1083,
1025,
1027,
1060,
1005,
1060,
990,
972,
951,
980,
975,
947,
980,
1038,
1079,
997,
1066,
1075,
1001,
968,
930,
902,
867,
888,
912,
888,
837,
915,
901,
851,
842,
868,
830,
853,
855,
867,
867,
835,
843,
821,
784,
751,
733,
775,
776,
743,
762,
796,
740,
724,
748,
754,
699,
727,
728,
691,
706,
681,
697,
657,
649,
628,
695,
648,
617,
696,
626,
604,
673,
592,
607,
623,
592,
552,
605,
582,
631,
567,
580,
581,
576,
601,
567,
567,
555,
590,
580,
539,
529,
562,
580,
529,
553,
544,
539,
541,
551,
527,
517,
485,
492,
545,
492,
559,
506,
555,
569,
588,
584,
573,
570,
560,
495,
463,
479,
455,
458,
444,
424,
448,
425,
410,
420,
439,
430,
425,
421,
442,
461,
409,
405,
379,
419,
416,
443,
403,
433,
405,
398,
376,
365,
347,
364,
398,
377,
364,
386,
384,
351,
324,
404,
353,
376,
329,
345,
354,
348,
345,
351,
366,
355,
375,
363,
341,
348,
384,
323,
310,
325,
302,
326,
337,
345,
332,
307,
325,
308,
340,
326,
330,
315,
339,
284,
322,
303,
316,
276,
287,
288,
300,
277,
290,
322,
291,
273,
285,
302,
262,
271,
259,
276,
272,
269,
266,
249,
278,
262,
237,
253,
252,
258,
244,
238,
274,
253,
243,
252,
255,
238,
266,
226,
246,
227,
222,
255,
250,
215,
254,
256,
237,
220,
243,
238,
215,
208,
252,
209,
179,
244,
197,
197,
185,
232,
202,
193,
189,
213,
233,
196,
202,
207,
212,
199,
204,
194,
211,
213,
203,
193,
211,
193,
209,
204,
182,
190,
169,
221,
190,
208,
166,
203,
202,
196,
168,
169,
214,
204,
177,
141,
155,
184,
166,
167,
158,
181,
167,
150,
145,
181,
156,
166,
183,
159,
159,
163,
170,
152,
143,
153,
153,
152,
151,
163,
171,
159,
141,
158,
132,
151,
178,
159,
139,
145,
163,
153,
148,
163,
148,
122,
140,
136,
150,
133,
131,
140,
137,
141,
118,
125,
113,
150,
128,
154,
144,
136,
109,
125,
136,
120,
102,
122,
119,
131,
132,
128,
122,
134,
109,
114,
122,
127,
110,
104,
135,
119,
105,
108,
128,
108,
119,
135,
103,
116,
119,
118,
117,
106,
100,
116,
110,
111,
108,
100,
106,
126,
137,
109,
110,
99,
98,
101,
103,
108,
102,
84,
118,
100,
113,
110,
103,
94,
95,
90,
112,
89,
92,
76,
91,
103,
108,
81,
111,
88,
88,
69,
107,
97,
96,
106,
91,
85,
94,
87,
81,
83,
91,
94,
111,
91,
77,
89,
86,
76,
73,
82,
81,
93,
68,
91,
83,
71,
94,
87,
95,
106,
84,
107,
91,
95,
81,
90,
65,
77,
87,
92,
79,
80,
83,
63,
85,
71,
75,
71,
75,
53,
73,
68,
68,
63,
81,
74,
74,
91,
59,
75,
86,
71,
67,
66,
73,
68,
56,
76,
68,
62,
54,
66,
69,
68,
64,
67,
77,
78,
57,
73,
66,
71,
63,
57,
55,
43,
66,
73,
47,
57,
60,
65,
63,
50,
67,
58,
59,
51,
60,
58,
55,
51,
56,
52,
46,
46,
46,
53,
66,
53,
50,
61,
62,
51,
56,
52,
49,
55,
44,
39,
42,
39,
44,
35,
52,
50,
56,
44,
49,
48,
46,
27,
45,
43,
34,
43,
34,
43,
41,
47,
35,
51,
34,
47,
35,
41,
34,
36,
37,
38,
40,
37,
36,
36,
42,
38,
40,
38,
30,
35,
34,
38,
31,
49,
35,
39,
37,
31,
33,
35,
38,
35,
31,
32,
42,
38,
39,
28,
45,
36,
37,
32,
38,
33,
30,
26,
27,
27,
33,
27,
27,
29,
27,
22,
36,
26,
36,
29,
29,
29,
35,
21,
22,
27,
32,
26,
25,
29,
28,
32,
21,
27,
23,
25,
21,
21,
30,
30,
30,
20,
23,
17,
20,
26,
21,
24,
34,
24,
17,
21,
28,
28,
17,
17,
23,
26,
22,
26,
19,
14,
20,
23,
19,
32,
13,
20,
17,
19,
17,
21,
16,
17,
26,
18,
29,
16,
17,
16,
24,
19,
23,
14,
22,
15,
18,
11,
19,
23,
21,
20,
14,
14,
22,
21,
22,
20,
13,
21,
21,
18,
14,
17,
14,
16,
10,
18,
12,
14,
14,
21,
10,
10,
14,
18,
18,
16,
9,
15,
17,
15,
10,
13,
14,
9,
14,
12,
16,
12,
12,
9,
12,
14,
10,
9,
16,
12,
11,
12,
4,
9,
10,
14,
4,
6,
10,
14,
12,
13,
6,
9,
13,
4,
8,
7,
7,
6,
14,
7,
4,
8,
9,
15,
10,
8,
4,
11,
10,
8,
8,
8,
10,
6,
9,
4,
4,
8,
7,
8,
6,
3,
4,
6,
6,
4,
4,
7,
8,
4,
4,
4,
6,
7,
3,
5,
5,
7,
6,
4,
3,
2,
8,
4,
3,
5,
11,
6,
7,
7,
6,
4,
4,
6,
8,
3,
6,
2,
2,
4,
4,
2,
2,
3,
2,
1,
1,
7,
2,
3,
2,
2,
4,
5,
3,
2,
5,
3,
1,
2,
2,
2,
1,
2,
1,
2,
3,
2,
2,
8,
2,
1,
2,
2,
1,
1,
0,
3,
0,
2,
0,
1,
2,
1,
1,
0,
2,
2,
2,
3,
0,
0,
0,
2,
0,
1,
1,
3,
1,
1,
2,
1,
0,
0,
1,
0,
0,
0,
0,
0,
0,
0,
0,
0,
0,
0,
0,
0,
0,
1,
0,
0,
0,
0,
0,
0,
0,
0,
0,
0,
0,
0,
0,
0,
0,
0,
0,
0,
0,
0,
0,
0,
0,
0,
0,
0,
0,
0,
0,
0,
1,
0,
0,
0,
0,
0,
0,
0,
0,
0,
0,
0,
0,
0,
0,
0,
0,
0,
0,
0,
0,
0,
0,
0,
0,
0,
0,
0,
0,
0,
0,
0,
0,
0,
0,
0,
0,
0,
0,
0,
0,
0,
0,
0,
0,
0,
0,
0,
0,
0,
0,
0,
0,
0,
0,
0,
0,
0,
0,
0,
0,
0,
0,
0,
0,
0,
0,
0,
0,
0,
0,
0,
0,
0,
0,
0,
0,
0,
0,
0,
0,
0,
0,
0,
0,
0,
0,
0,
0,
0,
0,
0,
0,
0,
0,
0,
0,
0,
0,
0,
0,
0,
0,
0,
0,
0,
0,
0,
0,
0,
0,
0,
0,
0,
0,
0,
0,
0,
0,
0,
0,
0,
0,
0,
0,
0,
0,
0,
0,
0,
0,
0,
0,
0,
0,
0,
0,
0,
0,
0,
0,
0,
0,
0,
0,
0,
0,
0,
0,
0,
0,
0,
0,
0,
0,
0,
0,
0,
0,
0,
0,
0,
0,
0,
0,
0,
0,
0,
0,
0,
0,
0,
0,
0,
0,
0,
0,
0,
0,
0,
0,
0,
0,
0,
0,
0,
0,
0,
0,
0,
0,
0,
0,
0,
0,
0,
0,
0,
0,
0,
0,
0,
0,
0,
0,
0,
0,
0,
0,
0,
0,
0,
0,
0,
0,
0,
0,
0,
0,
0,
0,
0,
0,
0,
0,
0,
0,
0,
0,
0,
0,
0,
0,
0,
0,
0,
0,
0,
0,
0,
0,
0,
0,
0,
0,
0,
0,
0,
0,
0,
0,
0,
0,
0,
0,
0,
0,
0,
0,
0,
0,
0,
0,
0,
0,
0,
0,
0,
0,
0,
0,
0,
0,
0,
0,
0,
0,
0,
0,
0,
0,
0,
0,
#ENDOFDATA   :