File: weave/spectra/Si_StdC_15kV7p5nA130kHz_132kHz24DT_100s.msa
#FORMAT      : EMSA/MAS Spectral Data File
#VERSION     : 1.0
#TITLE       : Bruker Nano spectrum Acquisition
#DATE        : 03-OCT-2019
#TIME        : 08:41
#OWNER       : Bruker Nano
#NPOINTS     : 4096
#NCOLUMNS    : 1
#XUNITS      : eV
#YUNITS      : counts
#DATATYPE    : Y
#XPERCHAN    : 5.00332
#OFFSET      : -482.834
#BEAMKV      : 15
#SIGNALTYPE  : EDS
#ELEVANGLE   : 40
#AZIMANGLE   : 45
#LIVETIME    : 100
#REALTIME    : 131.844
#PROBECUR    : 7.5
#TAUWIND     : 0
#TDEADLYR    : 0
#TACTLYR     : 0.045
#TALWIND     : 0.004
#CHOFFSET    : 0.0
#XLABEL      : Energy (eV)
#YLABEL      : Counts
#EDSDET      : SDUTW
##D2STDCMP   : Si,(Si:100.0),2.33
##DET_HASH   : c6370f9e-cc72-7559-f57e-203d75c8942b
##CALIB_HASH : b7972ae8-4123-2fc4-0a4f-7316ec9026e4
##SAMPLE     : <BulkSample id="1">\n<mOrientation id="2">\n<double>0.0</double>\n<double>0.0</double>\n<double>-1.0</double>\n</mOrientation>\n</BulkSample>
#SPECTRUM    :
0,
0,
0,
0,
0,
0,
0,
0,
0,
0,
0,
0,
0,
0,
0,
0,
0,
0,
4,
14,
27,
37,
35,
33,
39,
37,
52,
305,
3928,
30087,
124835,
280296,
342340,
225694,
81776,
16775,
1898,
250,
99,
36,
153,
671,
413,
384,
379,
411,
526,
955,
1843,
3468,
4778,
4499,
2965,
1407,
703,
504,
526,
626,
619,
646,
713,
702,
808,
977,
1249,
1607,
2041,
2261,
2132,
1675,
1543,
1462,
1537,
1709,
1827,
1940,
2104,
2186,
2375,
2339,
2617,
2605,
2759,
2997,
2953,
3099,
3153,
3332,
3284,
3402,
3677,
3462,
3602,
3565,
3793,
3729,
3729,
3925,
3937,
3955,
4066,
3969,
3986,
4019,
4130,
3984,
4185,
4141,
3969,
4224,
4107,
4151,
4044,
4104,
4185,
4160,
4243,
4319,
4155,
4220,
4412,
4273,
4354,
4282,
4490,
4586,
4490,
4706,
4870,
4932,
5271,
5520,
5603,
5766,
5659,
5798,
5859,
5860,
5886,
5815,
6372,
9000,
18762,
46330,
109597,
219699,
365204,
502627,
562861,
518402,
392722,
248423,
137206,
72976,
42976,
30186,
21851,
14740,
8971,
5195,
3165,
2063,
1719,
1579,
1566,
1454,
1452,
1410,
1389,
1327,
1277,
1301,
1264,
1276,
1254,
1252,
1307,
1310,
1325,
1326,
1389,
1329,
1369,
1364,
1363,
1400,
1359,
1380,
1387,
1409,
1384,
1356,
1338,
1359,
1299,
1344,
1366,
1303,
1288,
1343,
1367,
1283,
1330,
1331,
1287,
1338,
1276,
1288,
1323,
1283,
1313,
1291,
1313,
1283,
1276,
1213,
1242,
1266,
1264,
1292,
1279,
1244,
1258,
1223,
1185,
1221,
1166,
1264,
1160,
1185,
1198,
1213,
1200,
1201,
1202,
1172,
1171,
1182,
1192,
1136,
1195,
1111,
1156,
1174,
1177,
1151,
1198,
1114,
1135,
1087,
1098,
1128,
1108,
1102,
1128,
1062,
1068,
1046,
1053,
1042,
1043,
1036,
1027,
1039,
1031,
1024,
1028,
1018,
1021,
1024,
1017,
1002,
1023,
995,
1018,
1029,
1085,
1065,
1101,
1131,
1139,
1065,
1072,
1044,
988,
1046,
1025,
1031,
1018,
993,
978,
1005,
970,
998,
970,
963,
1006,
989,
946,
903,
913,
955,
969,
880,
993,
939,
937,
948,
917,
913,
881,
905,
865,
890,
945,
848,
812,
849,
824,
871,
906,
878,
823,
844,
808,
879,
833,
875,
808,
865,
824,
859,
765,
814,
866,
777,
819,
776,
766,
746,
777,
764,
800,
776,
751,
805,
776,
788,
714,
748,
702,
732,
769,
740,
721,
767,
728,
691,
733,
718,
723,
686,
709,
719,
715,
745,
681,
683,
708,
686,
692,
657,
686,
709,
674,
672,
679,
661,
643,
639,
644,
625,
647,
672,
660,
614,
604,
625,
634,
642,
610,
624,
615,
590,
609,
649,
653,
584,
598,
619,
623,
588,
575,
611,
591,
584,
559,
534,
607,
529,
632,
582,
584,
580,
574,
515,
574,
573,
534,
540,
537,
584,
581,
533,
560,
537,
535,
502,
515,
502,
500,
543,
494,
526,
518,
491,
500,
511,
516,
496,
522,
508,
497,
482,
472,
474,
521,
453,
492,
509,
471,
486,
481,
483,
478,
479,
477,
436,
466,
470,
421,
490,
451,
448,
462,
451,
444,
446,
421,
446,
433,
420,
463,
411,
410,
406,
430,
464,
418,
434,
437,
424,
366,
401,
397,
445,
470,
401,
410,
407,
390,
419,
366,
406,
414,
424,
362,
399,
363,
377,
389,
405,
379,
355,
363,
392,
378,
375,
389,
382,
379,
361,
376,
337,
357,
362,
371,
367,
336,
345,
338,
385,
354,
346,
331,
320,
339,
335,
352,
392,
363,
336,
354,
330,
346,
346,
338,
337,
320,
324,
323,
349,
312,
309,
303,
329,
278,
280,
306,
282,
358,
294,
287,
294,
299,
312,
288,
332,
286,
309,
286,
272,
290,
311,
285,
267,
260,
274,
281,
279,
274,
267,
282,
276,
268,
300,
281,
274,
287,
256,
282,
293,
264,
299,
255,
266,
290,
272,
259,
282,
243,
295,
262,
268,
253,
238,
247,
260,
253,
255,
233,
263,
212,
250,
231,
249,
266,
265,
245,
225,
227,
254,
206,
240,
217,
220,
217,
213,
225,
220,
242,
234,
229,
232,
219,
233,
211,
229,
218,
195,
221,
209,
214,
209,
223,
220,
206,
215,
230,
196,
218,
193,
216,
198,
189,
227,
211,
196,
208,
185,
197,
219,
192,
209,
177,
200,
178,
184,
200,
183,
186,
176,
195,
199,
185,
183,
170,
196,
186,
170,
174,
203,
152,
142,
173,
179,
172,
193,
184,
148,
170,
177,
189,
159,
192,
176,
181,
171,
165,
159,
165,
162,
145,
158,
165,
128,
164,
170,
173,
153,
158,
165,
136,
144,
151,
165,
147,
116,
140,
150,
127,
131,
155,
121,
160,
151,
142,
135,
120,
120,
157,
134,
119,
147,
128,
135,
140,
139,
127,
133,
143,
106,
147,
124,
117,
116,
111,
125,
129,
122,
119,
140,
133,
137,
115,
137,
116,
122,
87,
120,
97,
122,
120,
110,
127,
123,
105,
115,
122,
98,
106,
115,
109,
100,
98,
90,
116,
107,
99,
92,
97,
103,
102,
112,
124,
103,
94,
109,
104,
94,
105,
112,
103,
85,
80,
100,
69,
82,
95,
103,
93,
99,
95,
105,
65,
87,
68,
80,
85,
82,
91,
105,
90,
87,
63,
75,
76,
88,
80,
78,
75,
84,
73,
81,
91,
87,
61,
61,
82,
79,
74,
66,
65,
69,
70,
69,
64,
71,
84,
65,
59,
74,
81,
58,
75,
87,
66,
92,
44,
58,
61,
60,
67,
61,
70,
59,
67,
52,
53,
53,
57,
57,
65,
56,
59,
57,
51,
52,
48,
48,
56,
58,
53,
59,
52,
56,
64,
48,
48,
52,
46,
52,
48,
35,
51,
50,
54,
59,
52,
39,
50,
53,
36,
50,
42,
45,
43,
40,
47,
45,
43,
37,
36,
35,
43,
32,
42,
46,
40,
47,
31,
31,
44,
41,
28,
36,
21,
46,
34,
34,
40,
32,
41,
30,
50,
27,
21,
30,
41,
27,
34,
18,
19,
26,
28,
23,
26,
19,
35,
30,
16,
31,
26,
23,
33,
19,
26,
26,
27,
34,
19,
23,
12,
24,
15,
17,
17,
23,
20,
20,
21,
18,
18,
19,
17,
10,
19,
27,
12,
13,
20,
19,
13,
15,
21,
17,
15,
12,
15,
19,
19,
15,
11,
10,
9,
20,
12,
9,
7,
18,
13,
9,
5,
9,
13,
10,
4,
6,
5,
11,
6,
8,
9,
11,
6,
6,
11,
7,
10,
13,
6,
9,
7,
10,
2,
8,
8,
9,
6,
2,
3,
7,
5,
5,
6,
3,
3,
7,
8,
5,
4,
1,
5,
0,
2,
1,
2,
2,
2,
4,
2,
2,
2,
2,
2,
0,
0,
0,
0,
0,
0,
0,
2,
0,
0,
0,
0,
0,
0,
0,
0,
0,
0,
0,
2,
0,
0,
0,
0,
0,
0,
0,
0,
0,
0,
0,
0,
0,
0,
0,
0,
0,
0,
0,
0,
0,
0,
1,
0,
0,
0,
0,
0,
0,
0,
0,
0,
0,
0,
0,
0,
0,
1,
0,
0,
0,
0,
0,
0,
0,
0,
0,
0,
0,
1,
0,
0,
1,
0,
0,
0,
1,
1,
0,
0,
0,
1,
1,
0,
0,
2,
1,
1,
0,
0,
3,
0,
0,
0,
0,
0,
0,
0,
0,
1,
0,
0,
0,
0,
1,
0,
0,
0,
0,
0,
0,
0,
0,
0,
0,
1,
0,
0,
0,
0,
0,
0,
0,
1,
0,
0,
0,
1,
0,
1,
0,
0,
0,
0,
0,
0,
0,
1,
0,
0,
0,
0,
0,
0,
0,
0,
0,
0,
0,
0,
0,
0,
0,
0,
0,
0,
0,
0,
0,
0,
0,
0,
0,
0,
0,
0,
1,
0,
0,
0,
0,
0,
0,
0,
0,
0,
0,
0,
0,
0,
1,
0,
0,
0,
0,
0,
0,
0,
0,
0,
0,
0,
0,
0,
0,
0,
0,
0,
0,
0,
1,
0,
0,
0,
0,
0,
0,
0,
0,
0,
0,
0,
0,
0,
0,
0,
0,
0,
1,
0,
0,
0,
1,
0,
0,
0,
0,
0,
0,
0,
0,
0,
0,
0,
0,
0,
0,
0,
0,
0,
0,
0,
0,
0,
0,
0,
0,
0,
0,
0,
0,
0,
0,
0,
0,
0,
0,
0,
0,
0,
0,
0,
0,
0,
0,
0,
0,
1,
0,
0,
0,
0,
0,
0,
0,
0,
0,
0,
0,
0,
0,
0,
0,
0,
0,
0,
0,
0,
0,
0,
1,
0,
0,
0,
0,
0,
0,
0,
0,
0,
0,
0,
0,
0,
0,
0,
0,
0,
0,
0,
0,
0,
0,
0,
0,
0,
0,
0,
0,
0,
0,
0,
0,
0,
0,
0,
0,
0,
0,
0,
0,
#ENDOFDATA   :