File: weave/spectra/SiO2_StdC_15kV7p5nA130kHz_300s.msa
#FORMAT      : EMSA/MAS Spectral Data File
#VERSION     : 1.0
#TITLE       : Bruker Nano spectrum Acquisition
#DATE        : 31-DEC-1969
#TIME        : 07:00
#OWNER       : Bruker Nano
#NPOINTS     : 4096
#NCOLUMNS    : 1
#XUNITS      : eV
#YUNITS      : counts
#DATATYPE    : Y
#XPERCHAN    : 5.00332
#OFFSET      : -482.834
#BEAMKV      : 15
#SIGNALTYPE  : EDS
#ELEVANGLE   : 40
#AZIMANGLE   : 45
#LIVETIME    : 300
#REALTIME    : 347.996
#PROBECUR    : 7.5
#TAUWIND     : 0
#TDEADLYR    : 0
#TACTLYR     : 0.045
#TALWIND     : 0.004
#CHOFFSET    : 0.0
#XLABEL      : Energy (eV)
#YLABEL      : Counts
#EDSDET      : SDUTW
##SPECIMEN   : SiO2_StdC_15kV7p5nA130kHz_300s
##D2STDCMP   : SiO2,(O:53.2565),(Si:46.7435),2.63
##DET_HASH   : c6370f9e-cc72-7559-f57e-203d75c8942b
##CALIB_HASH : b7972ae8-4123-2fc4-0a4f-7316ec9026e4
##SAMPLE     : <BulkSample id="1">\n<mOrientation id="2">\n<double>0.0</double>\n<double>0.0</double>\n<double>-1.0</double>\n</mOrientation>\n</BulkSample>
#SPECTRUM    :
0,
0,
0,
0,
0,
0,
0,
0,
0,
0,
0,
0,
0,
0,
0,
0,
0,
2,
3,
8,
23,
27,
25,
30,
23,
30,
46,
422,
5752,
44305,
185787,
420960,
513992,
339356,
122373,
24515,
2820,
322,
94,
27,
51,
1167,
972,
1036,
1035,
1184,
1573,
2623,
5131,
9413,
12652,
12097,
8015,
4014,
2178,
1895,
2099,
2437,
2827,
3261,
4033,
6053,
11294,
28276,
74747,
165050,
270763,
313023,
254674,
141434,
56954,
17080,
5228,
2879,
2596,
2924,
3084,
3439,
3560,
3576,
3439,
3512,
3614,
3722,
4001,
4130,
4287,
4558,
4841,
4978,
5133,
5133,
5264,
5377,
5365,
5726,
5736,
6016,
6255,
6163,
6363,
6399,
6446,
6621,
6638,
6788,
6770,
7008,
7074,
7137,
7149,
7365,
7269,
7395,
7449,
7491,
7479,
7607,
7587,
7812,
7713,
7852,
7872,
7947,
8113,
8209,
8305,
8580,
8991,
9167,
9508,
9745,
9891,
10002,
10108,
9865,
10186,
10078,
9909,
10021,
10335,
13738,
25225,
59445,
137271,
276182,
463553,
639976,
725663,
674982,
517323,
331482,
184526,
97738,
56140,
36979,
26292,
17903,
11664,
7787,
5863,
4815,
4337,
4145,
4187,
4137,
4220,
4176,
3964,
3992,
3985,
3948,
4023,
3933,
3959,
3973,
4124,
4087,
4284,
4513,
4454,
4248,
4122,
4126,
4029,
4181,
4149,
4089,
4028,
3961,
3879,
3918,
3942,
3785,
3895,
3744,
3787,
3840,
3848,
3743,
3686,
3680,
3745,
3750,
3619,
3651,
3591,
3624,
3700,
3688,
3561,
3549,
3602,
3601,
3397,
3460,
3579,
3485,
3492,
3558,
3362,
3270,
3420,
3448,
3247,
3410,
3324,
3296,
3410,
3330,
3292,
3296,
3274,
3234,
3244,
3220,
3286,
3237,
3148,
3182,
3171,
3185,
3040,
3134,
3114,
3130,
3026,
3090,
3026,
3044,
2979,
3008,
2976,
2972,
2901,
2956,
2814,
2878,
2790,
2757,
2761,
2724,
2741,
2710,
2673,
2689,
2649,
2694,
2650,
2606,
2590,
2583,
2606,
2716,
2778,
2891,
2988,
3098,
3145,
3081,
3011,
2890,
2752,
2668,
2575,
2544,
2515,
2479,
2479,
2523,
2465,
2378,
2403,
2465,
2429,
2408,
2396,
2332,
2347,
2348,
2268,
2300,
2306,
2257,
2307,
2220,
2256,
2326,
2222,
2216,
2246,
2122,
2210,
2108,
2050,
2176,
2185,
2104,
2065,
2102,
2059,
2051,
2049,
2097,
2027,
1994,
2011,
2003,
2046,
2029,
1960,
2061,
1987,
2035,
1956,
1965,
1926,
1950,
1964,
1868,
1876,
1858,
1866,
1816,
1887,
1767,
1790,
1792,
1845,
1752,
1794,
1844,
1717,
1752,
1821,
1819,
1811,
1739,
1741,
1729,
1715,
1756,
1666,
1677,
1675,
1780,
1640,
1660,
1620,
1601,
1608,
1592,
1640,
1563,
1670,
1629,
1549,
1624,
1566,
1482,
1527,
1576,
1466,
1517,
1441,
1513,
1459,
1449,
1505,
1447,
1496,
1462,
1452,
1466,
1451,
1447,
1416,
1462,
1398,
1401,
1372,
1325,
1434,
1387,
1342,
1412,
1381,
1338,
1350,
1330,
1397,
1369,
1313,
1300,
1315,
1217,
1298,
1225,
1307,
1335,
1351,
1242,
1280,
1252,
1257,
1212,
1247,
1230,
1243,
1303,
1230,
1224,
1201,
1138,
1217,
1134,
1190,
1167,
1105,
1151,
1121,
1132,
1153,
1118,
1174,
1139,
1123,
1126,
1073,
1052,
1067,
1126,
1079,
1057,
1086,
1049,
1045,
1026,
1080,
1010,
1112,
1068,
1057,
993,
1064,
1043,
1045,
1015,
1011,
1022,
984,
991,
1016,
1008,
1050,
970,
998,
1010,
924,
996,
943,
955,
993,
986,
992,
952,
952,
917,
926,
947,
987,
902,
913,
860,
920,
918,
889,
891,
906,
906,
923,
870,
838,
862,
838,
853,
904,
872,
776,
812,
819,
846,
868,
807,
825,
829,
820,
836,
770,
819,
798,
779,
748,
781,
790,
802,
824,
800,
838,
789,
809,
809,
783,
814,
784,
741,
813,
744,
767,
714,
792,
699,
730,
719,
661,
691,
749,
734,
665,
714,
659,
702,
675,
723,
650,
678,
657,
650,
720,
655,
644,
664,
686,
630,
637,
630,
669,
639,
611,
660,
611,
604,
683,
591,
612,
648,
644,
614,
602,
611,
597,
638,
610,
595,
557,
603,
589,
571,
563,
573,
583,
537,
560,
572,
568,
608,
520,
526,
550,
532,
539,
551,
589,
534,
522,
521,
525,
557,
550,
531,
498,
513,
520,
533,
526,
492,
502,
486,
479,
469,
459,
494,
528,
533,
474,
488,
492,
490,
507,
481,
470,
455,
478,
494,
470,
479,
455,
481,
433,
463,
467,
438,
450,
454,
491,
453,
429,
414,
426,
425,
438,
486,
440,
446,
404,
436,
403,
478,
425,
415,
368,
426,
403,
440,
428,
401,
417,
395,
445,
403,
356,
411,
405,
371,
354,
382,
381,
366,
405,
366,
384,
355,
369,
383,
373,
359,
344,
365,
413,
354,
344,
370,
392,
354,
372,
327,
344,
324,
347,
317,
332,
337,
329,
341,
322,
319,
300,
324,
302,
341,
320,
312,
307,
338,
324,
306,
307,
323,
293,
291,
262,
310,
302,
281,
296,
263,
290,
272,
277,
243,
285,
270,
282,
256,
281,
268,
291,
250,
259,
260,
306,
257,
264,
268,
273,
259,
253,
232,
232,
227,
275,
257,
246,
210,
257,
233,
229,
218,
228,
216,
224,
238,
225,
232,
213,
251,
241,
225,
214,
204,
221,
220,
217,
218,
244,
180,
223,
236,
198,
200,
198,
212,
211,
201,
208,
166,
195,
219,
192,
200,
239,
195,
199,
185,
172,
207,
187,
206,
183,
166,
183,
188,
198,
173,
173,
179,
151,
186,
160,
168,
189,
166,
173,
147,
166,
169,
172,
159,
147,
158,
127,
142,
150,
139,
146,
150,
168,
141,
145,
156,
148,
138,
143,
134,
121,
115,
118,
149,
120,
151,
132,
117,
137,
114,
134,
138,
110,
120,
107,
114,
102,
118,
104,
129,
99,
108,
91,
111,
104,
132,
109,
115,
108,
119,
96,
104,
117,
97,
92,
89,
98,
94,
116,
86,
106,
74,
102,
85,
121,
91,
105,
83,
110,
100,
83,
82,
95,
108,
72,
81,
91,
86,
90,
89,
80,
99,
88,
76,
81,
77,
76,
73,
72,
66,
80,
71,
68,
73,
61,
85,
68,
56,
58,
69,
78,
65,
57,
71,
47,
68,
70,
52,
65,
73,
52,
60,
73,
55,
63,
64,
58,
58,
46,
55,
54,
48,
52,
50,
53,
46,
39,
49,
47,
54,
47,
49,
46,
34,
40,
37,
50,
45,
37,
52,
37,
32,
35,
51,
32,
19,
34,
41,
27,
37,
25,
30,
20,
37,
21,
31,
34,
25,
30,
29,
23,
29,
20,
29,
20,
28,
36,
26,
31,
28,
25,
20,
17,
28,
15,
23,
18,
13,
18,
13,
21,
13,
17,
15,
14,
14,
22,
18,
14,
15,
8,
9,
9,
12,
10,
10,
11,
7,
10,
5,
7,
7,
4,
5,
8,
9,
3,
6,
7,
6,
5,
9,
8,
7,
4,
6,
4,
0,
3,
0,
5,
4,
3,
1,
2,
3,
1,
2,
1,
3,
1,
0,
0,
0,
0,
0,
0,
4,
0,
0,
0,
0,
1,
0,
1,
0,
0,
1,
0,
0,
2,
0,
0,
0,
1,
2,
4,
1,
2,
1,
0,
3,
1,
1,
0,
0,
1,
1,
0,
0,
1,
1,
0,
0,
1,
1,
0,
0,
0,
0,
1,
1,
0,
1,
0,
0,
0,
0,
0,
1,
1,
0,
0,
1,
0,
0,
0,
2,
0,
0,
1,
0,
1,
0,
0,
0,
0,
0,
0,
1,
2,
0,
0,
0,
0,
0,
0,
2,
2,
0,
0,
1,
0,
0,
0,
0,
0,
0,
1,
0,
0,
1,
0,
0,
0,
0,
0,
0,
0,
0,
0,
0,
1,
0,
0,
0,
0,
1,
0,
0,
0,
0,
0,
0,
0,
0,
0,
0,
0,
0,
0,
0,
0,
0,
0,
0,
1,
0,
0,
0,
0,
0,
0,
0,
0,
0,
0,
0,
0,
0,
0,
0,
0,
0,
0,
0,
0,
0,
0,
0,
0,
0,
1,
0,
0,
0,
0,
0,
0,
1,
0,
0,
0,
0,
0,
0,
0,
0,
0,
0,
0,
0,
0,
0,
0,
0,
0,
0,
0,
0,
0,
0,
0,
0,
0,
0,
0,
0,
1,
0,
0,
0,
0,
0,
0,
0,
0,
0,
0,
0,
0,
0,
0,
0,
0,
0,
0,
0,
0,
0,
0,
0,
0,
0,
1,
0,
1,
0,
0,
0,
0,
0,
0,
0,
0,
0,
0,
0,
0,
0,
1,
0,
0,
0,
0,
0,
0,
0,
0,
0,
0,
0,
0,
0,
0,
0,
0,
0,
0,
0,
0,
0,
0,
0,
0,
0,
0,
0,
0,
1,
0,
0,
0,
0,
0,
0,
0,
0,
0,
0,
0,
0,
0,
0,
1,
0,
0,
0,
0,
0,
0,
0,
0,
0,
0,
0,
0,
0,
0,
0,
0,
0,
0,
0,
0,
0,
0,
0,
0,
0,
0,
0,
0,
0,
0,
0,
0,
0,
0,
0,
0,
0,
#ENDOFDATA   :